m_wavelength	m_R	m_GDD
800.000000	59.598630	274.602000
802.000000	56.347430	440.228000
804.000000	52.678420	633.096000
806.000000	49.427330	675.624000
808.000000	47.875170	288.780000
810.000000	49.194150	-409.266000
812.000000	53.519630	-796.979000
814.000000	59.717740	-692.267000
816.000000	66.254540	-414.619000
818.000000	72.084200	-191.070000
820.000000	76.815150	-60.948700
822.000000	80.459830	2.845030
824.000000	83.184460	29.614200
826.000000	85.175110	37.931900
828.000000	86.587660	37.833100
830.000000	87.537050	34.464400
832.000000	88.100040	30.560500
834.000000	88.320790	27.907900
836.000000	88.215420	28.310100
838.000000	87.775410	34.462800
840.000000	86.971250	51.002100
842.000000	85.761880	85.525800
844.000000	84.122380	147.444000
846.000000	82.114460	236.492000
848.000000	80.024190	306.192000
850.000000	78.505760	230.500000
852.000000	78.435270	-58.859800
854.000000	80.223380	-335.249000
856.000000	83.296120	-366.554000
858.000000	86.624280	-243.502000
860.000000	89.516700	-120.803000
862.000000	91.768470	-46.125200
864.000000	93.436080	-9.858360
866.000000	94.648080	4.822540
868.000000	95.524630	8.995920
870.000000	96.157500	8.481520
872.000000	96.611410	6.069750
874.000000	96.930140	3.035420
876.000000	97.142090	-0.054386
878.000000	97.264200	-2.930930
880.000000	97.304110	-5.392720
882.000000	97.260880	-7.106100
884.000000	97.124150	-7.286890
886.000000	96.871680	-3.991510
888.000000	96.465590	7.556950
890.000000	95.850700	38.364400
892.000000	94.973020	107.467000
894.000000	93.882240	208.126000
896.000000	93.014550	163.971000
898.000000	93.261430	-192.645000
900.000000	94.775090	-330.827000
902.000000	96.504310	-173.053000
904.000000	97.767700	-53.652200
906.000000	98.559180	-10.664300
908.000000	99.040690	-1.165760
910.000000	99.338620	-2.162280
912.000000	99.528800	-5.627320
914.000000	99.654280	-9.171810
916.000000	99.739720	-12.215300
918.000000	99.799560	-14.710100
920.000000	99.842520	-16.742000
922.000000	99.874060	-18.411500
924.000000	99.897680	-19.804000
926.000000	99.915670	-20.984700
928.000000	99.929580	-22.002400
930.000000	99.940500	-22.892700
932.000000	99.949180	-23.681600
934.000000	99.956150	-24.388500
936.000000	99.961820	-25.027600
938.000000	99.966460	-25.609500
940.000000	99.970300	-26.142100
942.000000	99.973490	-26.631600
944.000000	99.976180	-27.082600
946.000000	99.978450	-27.498600
948.000000	99.980380	-27.882300
950.000000	99.982040	-28.236000
952.000000	99.983460	-28.561200
954.000000	99.984690	-28.859500
956.000000	99.985750	-29.131900
958.000000	99.986680	-29.379400
960.000000	99.987500	-29.602900
962.000000	99.988210	-29.803000
964.000000	99.988840	-29.980600
966.000000	99.989400	-30.136300
968.000000	99.989890	-30.270700
970.000000	99.990330	-30.384700
972.000000	99.990710	-30.478900
974.000000	99.991060	-30.554100
976.000000	99.991370	-30.611200
978.000000	99.991640	-30.651000
980.000000	99.991890	-30.674500
982.000000	99.992100	-30.682700
984.000000	99.992300	-30.676600
986.000000	99.992470	-30.657300
988.000000	99.992620	-30.626000
990.000000	99.992760	-30.584000
992.000000	99.992870	-30.532400
994.000000	99.992980	-30.472600
996.000000	99.993060	-30.405800
998.000000	99.993140	-30.333500
1000.000000	99.993200	-30.256800
1002.000000	99.993250	-30.177300
1004.000000	99.993290	-30.096100
1006.000000	99.993320	-30.014700
1008.000000	99.993340	-29.934200
1010.000000	99.993350	-29.856000
1012.000000	99.993350	-29.781100
1014.000000	99.993340	-29.710700
1016.000000	99.993320	-29.645800
1018.000000	99.993290	-29.587400
1020.000000	99.993250	-29.536200
1022.000000	99.993200	-29.493000
1024.000000	99.993150	-29.458400
1026.000000	99.993080	-29.432900
1028.000000	99.993010	-29.416900
1030.000000	99.992930	-29.410600
1032.000000	99.992830	-29.414000
1034.000000	99.992730	-29.427100
1036.000000	99.992620	-29.449800
1038.000000	99.992490	-29.481600
1040.000000	99.992360	-29.522100
1042.000000	99.992210	-29.570700
1044.000000	99.992060	-29.626500
1046.000000	99.991890	-29.688700
1048.000000	99.991700	-29.756300
1050.000000	99.991510	-29.828200
1052.000000	99.991290	-29.903000
1054.000000	99.991070	-29.979600
1056.000000	99.990830	-30.056500
1058.000000	99.990570	-30.132300
1060.000000	99.990290	-30.205600
1062.000000	99.989990	-30.274800
1064.000000	99.989670	-30.338400
1066.000000	99.989330	-30.395100
1068.000000	99.988970	-30.443400
1070.000000	99.988580	-30.482100
1072.000000	99.988160	-30.510000
1074.000000	99.987710	-30.526100
1076.000000	99.987240	-30.529500
1078.000000	99.986730	-30.519600
1080.000000	99.986180	-30.496200
1082.000000	99.985590	-30.459100
1084.000000	99.984960	-30.408500
1086.000000	99.984280	-30.345200
1088.000000	99.983560	-30.270300
1090.000000	99.982780	-30.185200
1092.000000	99.981940	-30.091900
1094.000000	99.981030	-29.993100
1096.000000	99.980050	-29.891900
1098.000000	99.979000	-29.792200
1100.000000	99.977860	-29.698300
1102.000000	99.976640	-29.615500
1104.000000	99.975300	-29.549900
1106.000000	99.973860	-29.508300
1108.000000	99.972300	-29.498500
1110.000000	99.970600	-29.529200
1112.000000	99.968760	-29.610200
1114.000000	99.966750	-29.752500
1116.000000	99.964560	-29.968100
1118.000000	99.962170	-30.270400
1120.000000	99.959560	-30.674300
1122.000000	99.956700	-31.196300
1124.000000	99.953570	-31.854400
1126.000000	99.950130	-32.668600
1128.000000	99.946350	-33.661200
1130.000000	99.942190	-34.856500
1132.000000	99.937600	-36.281800
1134.000000	99.932530	-37.967200
1136.000000	99.926910	-39.946400
1138.000000	99.920690	-42.256800
1140.000000	99.913780	-44.940600
1142.000000	99.906090	-48.045200
1144.000000	99.897510	-51.623800
1146.000000	99.887920	-55.737300
1148.000000	99.877190	-60.454500
1150.000000	99.865130	-65.854200
1152.000000	99.851570	-72.026900
1154.000000	99.836270	-79.076800
1156.000000	99.818970	-87.124500
1158.000000	99.799360	-96.310400
1160.000000	99.777060	-106.798000
1162.000000	99.751630	-118.779000
1164.000000	99.722550	-132.480000
1166.000000	99.689190	-148.167000
1168.000000	99.650790	-166.157000
1170.000000	99.606450	-186.827000
1172.000000	99.555050	-210.629000
1174.000000	99.495270	-238.103000
1176.000000	99.425460	-269.901000
1178.000000	99.343610	-306.809000
1180.000000	99.247260	-349.777000
1182.000000	99.133330	-399.960000
1184.000000	98.998040	-458.753000
1186.000000	98.836630	-527.847000
1188.000000	98.643190	-609.281000
1190.000000	98.410280	-705.494000
1192.000000	98.128560	-819.369000
1194.000000	97.786290	-954.239000
1196.000000	97.368800	-1113.820000
1198.000000	96.857770	-1301.970000
1200.000000	96.230690	-1522.190000
1202.000000	95.460350	-1776.600000
1204.000000	94.514970	-2064.070000
1206.000000	93.359430	-2377.130000
1208.000000	91.958590	-2697.190000
1210.000000	90.284150	-2988.350000
1212.000000	88.326010	-3191.260000
1214.000000	86.108200	-3221.710000
1216.000000	83.705730	-2982.240000
1218.000000	81.253320	-2395.090000
1220.000000	78.934250	-1453.210000
1222.000000	76.942650	-261.329000
1224.000000	75.430240	976.659000
1226.000000	74.463690	2036.380000
1228.000000	74.015590	2767.650000
1230.000000	73.989110	3136.700000
1232.000000	74.257160	3201.110000
1234.000000	74.695630	3056.370000
1236.000000	75.201780	2793.590000
1238.000000	75.699480	2480.730000
1240.000000	76.136570	2160.880000
1242.000000	76.479250	1857.610000
1244.000000	76.706390	1581.550000
1246.000000	76.804750	1335.670000
1248.000000	76.765470	1118.820000
1250.000000	76.581580	927.881000
1252.000000	76.246320	758.996000
1254.000000	75.751970	608.209000
1256.000000	75.089010	471.748000
1258.000000	74.245560	346.136000
1260.000000	73.206850	228.202000
1262.000000	71.954870	115.043000
1264.000000	70.468050	3.970710
1266.000000	68.721020	-107.545000
1268.000000	66.684610	-221.931000
1270.000000	64.326090	-341.553000
1272.000000	61.609960	-468.763000
1274.000000	58.499440	-605.970000
1276.000000	54.959250	-755.782000
1278.000000	50.960090	-921.376000
1280.000000	46.485350	-1107.400000
1282.000000	41.540770	-1322.190000
1284.000000	36.166950	-1582.870000
1286.000000	30.453830	-1927.750000
1288.000000	24.554680	-2446.490000
1290.000000	18.694430	-3360.490000
1292.000000	13.165570	-5263.920000
1294.000000	8.304810	-9981.520000
1296.000000	4.448490	-24309.700000
1298.000000	1.873830	-76885.000000
1300.000000	0.743010	-98453.100000
