# 2024-10-25T17:49:23+02:00
# Header Rows: 14
# File Format: 2
# Device: waveScan USB
# Serial: S10794
# Firmware: 4.3.4
# Software: 2.0.0.60
# SVN Revision: 541
# SpectrumCenter of Gravity: 1036.5 nm
# SpectrumFWHM: 23.8 nm
# SpectrumPeak: 1024.1 nm
# ==========
# Wavelength	Intensity
# ==========
850.000	25
850.171	28
850.342	27
850.513	24
850.684	27
850.855	33
851.026	31
851.197	25
851.368	25
851.539	29
851.710	29
851.881	29
852.052	25
852.223	27
852.394	27
852.565	29
852.736	26
852.907	23
853.078	29
853.249	26
853.420	28
853.591	24
853.762	26
853.933	27
854.104	27
854.275	26
854.446	29
854.617	33
854.787	28
854.958	30
855.129	25
855.300	30
855.471	27
855.642	28
855.813	25
855.984	30
856.155	32
856.326	27
856.497	25
856.668	32
856.839	26
857.010	31
857.181	26
857.352	29
857.523	23
857.694	26
857.865	25
858.036	26
858.207	29
858.378	31
858.549	28
858.720	32
858.891	29
859.062	25
859.233	34
859.404	25
859.575	30
859.746	24
859.917	30
860.088	23
860.259	30
860.430	28
860.601	27
860.772	24
860.943	26
861.114	30
861.285	30
861.456	26
861.627	34
861.798	31
861.969	31
862.140	24
862.311	28
862.482	23
862.653	28
862.824	28
862.995	24
863.166	31
863.337	25
863.508	28
863.679	33
863.850	23
864.021	27
864.191	25
864.362	28
864.533	33
864.704	29
864.875	27
865.046	25
865.217	25
865.388	27
865.559	28
865.730	26
865.901	25
866.072	25
866.243	25
866.414	26
866.585	26
866.756	29
866.927	29
867.098	23
867.269	27
867.440	27
867.611	26
867.782	29
867.953	35
868.124	25
868.295	27
868.466	25
868.637	30
868.808	36
868.979	33
869.150	28
869.321	25
869.492	27
869.663	25
869.834	30
870.005	27
870.176	27
870.347	26
870.518	27
870.689	29
870.860	25
871.031	27
871.202	28
871.373	27
871.544	28
871.715	27
871.886	28
872.057	27
872.228	30
872.399	27
872.570	28
872.741	30
872.912	25
873.083	25
873.254	28
873.425	24
873.596	32
873.766	26
873.937	32
874.108	27
874.279	24
874.450	33
874.621	28
874.792	27
874.963	31
875.134	23
875.305	27
875.476	28
875.647	22
875.818	29
875.989	26
876.160	31
876.331	28
876.502	28
876.673	28
876.844	27
877.015	28
877.186	28
877.357	29
877.528	25
877.699	27
877.870	24
878.041	26
878.212	22
878.383	35
878.554	27
878.725	34
878.896	27
879.067	27
879.238	26
879.409	25
879.580	27
879.751	26
879.922	37
880.093	29
880.264	22
880.435	28
880.606	26
880.777	30
880.948	28
881.119	28
881.290	28
881.461	27
881.632	31
881.803	29
881.974	27
882.145	28
882.316	32
882.487	24
882.658	28
882.829	31
883.000	32
883.170	27
883.341	31
883.512	28
883.683	31
883.854	32
884.025	25
884.196	31
884.367	26
884.538	30
884.709	29
884.880	31
885.051	32
885.222	25
885.393	31
885.564	27
885.735	27
885.906	31
886.077	27
886.248	29
886.419	27
886.590	31
886.761	30
886.932	25
887.103	27
887.274	26
887.445	30
887.616	30
887.787	25
887.958	27
888.129	28
888.300	25
888.471	27
888.642	35
888.813	29
888.984	30
889.155	31
889.326	26
889.497	29
889.668	25
889.839	29
890.010	29
890.181	26
890.352	30
890.523	30
890.694	23
890.865	30
891.036	24
891.207	30
891.378	29
891.549	26
891.720	31
891.891	29
892.062	23
892.233	31
892.404	31
892.574	26
892.745	30
892.916	31
893.087	32
893.258	24
893.429	26
893.600	32
893.771	31
893.942	26
894.113	25
894.284	31
894.455	27
894.626	25
894.797	27
894.968	31
895.139	23
895.310	27
895.481	28
895.652	27
895.823	27
895.994	29
896.165	26
896.336	28
896.507	27
896.678	30
896.849	28
897.020	29
897.191	28
897.362	28
897.533	28
897.704	32
897.875	24
898.046	26
898.217	26
898.388	27
898.559	27
898.730	32
898.901	29
899.072	25
899.243	30
899.414	32
899.585	32
899.756	31
899.927	25
900.098	24
900.269	34
900.440	31
900.611	27
900.782	26
900.953	25
901.124	21
901.295	30
901.466	37
901.637	26
901.808	34
901.979	25
902.149	28
902.320	26
902.491	34
902.662	23
902.833	28
903.004	29
903.175	29
903.346	29
903.517	27
903.688	29
903.859	31
904.030	26
904.201	29
904.372	26
904.543	28
904.714	28
904.885	32
905.056	29
905.227	29
905.398	29
905.569	26
905.740	27
905.911	29
906.082	28
906.253	26
906.424	22
906.595	30
906.766	28
906.937	28
907.108	25
907.279	33
907.450	31
907.621	27
907.792	27
907.963	25
908.134	31
908.305	29
908.476	26
908.647	31
908.818	24
908.989	27
909.160	30
909.331	28
909.502	35
909.673	26
909.844	26
910.015	26
910.186	27
910.357	29
910.528	25
910.699	31
910.870	29
911.041	29
911.212	30
911.383	30
911.553	31
911.724	32
911.895	26
912.066	28
912.237	29
912.408	29
912.579	28
912.750	28
912.921	26
913.092	26
913.263	30
913.434	29
913.605	32
913.776	27
913.947	24
914.118	27
914.289	26
914.460	30
914.631	26
914.802	25
914.973	28
915.144	28
915.315	29
915.486	32
915.657	26
915.828	29
915.999	29
916.170	27
916.341	30
916.512	34
916.683	35
916.854	29
917.025	26
917.196	27
917.367	28
917.538	29
917.709	32
917.880	25
918.051	25
918.222	31
918.393	29
918.564	30
918.735	29
918.906	27
919.077	30
919.248	27
919.419	29
919.590	31
919.761	33
919.932	27
920.103	28
920.274	27
920.445	30
920.616	25
920.787	29
920.957	30
921.128	27
921.299	30
921.470	28
921.641	28
921.812	32
921.983	31
922.154	28
922.325	31
922.496	30
922.667	30
922.838	31
923.009	32
923.180	30
923.351	29
923.522	32
923.693	31
923.864	33
924.035	29
924.206	32
924.377	26
924.548	28
924.719	35
924.890	27
925.061	29
925.232	29
925.403	30
925.574	33
925.745	26
925.916	28
926.087	28
926.258	35
926.429	29
926.600	29
926.771	27
926.942	32
927.113	27
927.284	32
927.455	31
927.626	31
927.797	28
927.968	25
928.139	31
928.310	31
928.481	29
928.652	32
928.823	33
928.994	27
929.165	34
929.336	30
929.507	36
929.678	37
929.849	29
930.020	36
930.191	33
930.362	27
930.532	32
930.703	35
930.874	27
931.045	35
931.216	29
931.387	31
931.558	32
931.729	31
931.900	29
932.071	28
932.242	36
932.413	36
932.584	38
932.755	37
932.926	39
933.097	34
933.268	35
933.439	39
933.610	41
933.781	46
933.952	39
934.123	40
934.294	44
934.465	43
934.636	40
934.807	44
934.978	50
935.149	46
935.320	49
935.491	55
935.662	56
935.833	60
936.004	54
936.175	60
936.346	63
936.517	66
936.688	60
936.859	60
937.030	64
937.201	74
937.372	78
937.543	75
937.714	72
937.885	81
938.056	81
938.227	84
938.398	89
938.569	101
938.740	96
938.911	108
939.082	112
939.253	108
939.424	116
939.595	119
939.766	129
939.936	128
940.107	137
940.278	143
940.449	153
940.620	156
940.791	153
940.962	163
941.133	173
941.304	183
941.475	198
941.646	191
941.817	208
941.988	189
942.159	239
942.330	214
942.501	227
942.672	237
942.843	250
943.014	258
943.185	261
943.356	248
943.527	273
943.698	301
943.869	289
944.040	310
944.211	305
944.382	324
944.553	402
944.724	345
944.895	374
945.066	374
945.237	379
945.408	394
945.579	394
945.750	430
945.921	436
946.092	427
946.263	482
946.434	488
946.605	499
946.776	456
946.947	563
947.118	568
947.289	591
947.460	606
947.631	565
947.802	610
947.973	614
948.144	658
948.315	660
948.486	657
948.657	657
948.828	647
948.999	722
949.170	745
949.340	758
949.511	812
949.682	870
949.853	829
950.024	781
950.195	822
950.366	877
950.537	853
950.708	868
950.879	921
951.050	970
951.221	982
951.392	1051
951.563	1004
951.734	1068
951.905	1141
952.076	1109
952.247	1156
952.418	1151
952.589	1256
952.760	1216
952.931	1311
953.102	1332
953.273	1259
953.444	1292
953.615	1404
953.786	1403
953.957	1400
954.128	1451
954.299	1490
954.470	1710
954.641	1606
954.812	1491
954.983	1739
955.154	1689
955.325	1661
955.496	1834
955.667	1778
955.838	2033
956.009	2075
956.180	1889
956.351	2081
956.522	1956
956.693	2134
956.864	2251
957.035	2114
957.206	2152
957.377	2167
957.548	2234
957.719	2286
957.890	2323
958.061	2340
958.232	2362
958.403	2483
958.574	2633
958.745	2721
958.915	2653
959.086	2706
959.257	2589
959.428	2740
959.599	2677
959.770	2844
959.941	3155
960.112	2870
960.283	3231
960.454	3084
960.625	3339
960.796	3330
960.967	3128
961.138	3428
961.309	3137
961.480	3332
961.651	3221
961.822	3290
961.993	3233
962.164	3269
962.335	3334
962.506	3283
962.677	3401
962.848	3326
963.019	3421
963.190	3534
963.361	3401
963.532	3529
963.703	3576
963.874	3575
964.045	3444
964.216	3633
964.387	3550
964.558	3433
964.729	3402
964.900	3702
965.071	3997
965.242	3706
965.413	3741
965.584	3816
965.755	3748
965.926	3987
966.097	3856
966.268	3787
966.439	3819
966.610	3781
966.781	3883
966.952	3879
967.123	3864
967.294	3687
967.465	3864
967.636	3801
967.807	3929
967.978	3905
968.149	3891
968.319	3928
968.490	3968
968.661	4064
968.832	4099
969.003	4109
969.174	3847
969.345	3985
969.516	3830
969.687	3972
969.858	3930
970.029	3781
970.200	3871
970.371	3715
970.542	3682
970.713	3626
970.884	3701
971.055	3539
971.226	3429
971.397	3549
971.568	3378
971.739	3567
971.910	3400
972.081	3413
972.252	3515
972.423	3634
972.594	3591
972.765	3496
972.936	3434
973.107	3275
973.278	3422
973.449	3251
973.620	3323
973.791	3200
973.962	3215
974.133	3022
974.304	2945
974.475	3015
974.646	3074
974.817	3231
974.988	2906
975.159	2810
975.330	2758
975.501	2791
975.672	3051
975.843	2701
976.014	2582
976.185	2624
976.356	2615
976.527	2912
976.698	2732
976.869	2682
977.040	2702
977.211	2318
977.382	2620
977.553	2395
977.723	2509
977.894	2393
978.065	2222
978.236	2338
978.407	2195
978.578	2264
978.749	2129
978.920	2156
979.091	1934
979.262	2012
979.433	2049
979.604	1887
979.775	1897
979.946	1865
980.117	1769
980.288	1986
980.459	1779
980.630	1659
980.801	1688
980.972	1703
981.143	1673
981.314	1592
981.485	1503
981.656	1557
981.827	1440
981.998	1495
982.169	1431
982.340	1400
982.511	1374
982.682	1339
982.853	1449
983.024	1374
983.195	1250
983.366	1307
983.537	1123
983.708	1137
983.879	1144
984.050	1138
984.221	1076
984.392	1071
984.563	1065
984.734	1019
984.905	998
985.076	1016
985.247	1065
985.418	986
985.589	999
985.760	1008
985.931	1020
986.102	1008
986.273	974
986.444	966
986.615	980
986.786	1023
986.957	967
987.128	990
987.298	990
987.469	952
987.640	958
987.811	975
987.982	1009
988.153	1027
988.324	991
988.495	992
988.666	1006
988.837	1007
989.008	1051
989.179	1047
989.350	1080
989.521	1142
989.692	1092
989.863	1175
990.034	1162
990.205	1353
990.376	1245
990.547	1201
990.718	1292
990.889	1280
991.060	1458
991.231	1271
991.402	1381
991.573	1509
991.744	1527
991.915	1537
992.086	1453
992.257	1549
992.428	1578
992.599	1661
992.770	1635
992.941	1591
993.112	1669
993.283	1730
993.454	1779
993.625	1757
993.796	1869
993.967	1757
994.138	1769
994.309	1800
994.480	1808
994.651	1978
994.822	1909
994.993	2002
995.164	2027
995.335	1969
995.506	2125
995.677	2093
995.848	2063
996.019	2084
996.190	2144
996.361	2079
996.532	2135
996.702	2148
996.873	2180
997.044	2263
997.215	2286
997.386	2400
997.557	2462
997.728	2407
997.899	2421
998.070	2422
998.241	2616
998.412	2554
998.583	2531
998.754	2511
998.925	2570
999.096	2572
999.267	2629
999.438	2703
999.609	2736
999.780	2862
999.951	2852
1000.122	2966
1000.293	3111
1000.464	3124
1000.635	3109
1000.806	3208
1000.977	3100
1001.148	3252
1001.319	3189
1001.490	3246
1001.661	3400
1001.832	3635
1002.003	3484
1002.174	3617
1002.345	3755
1002.516	3673
1002.687	3749
1002.858	3587
1003.029	3843
1003.200	3893
1003.371	3885
1003.542	3711
1003.713	3759
1003.884	3710
1004.055	3746
1004.226	3616
1004.397	3470
1004.568	3491
1004.739	3419
1004.910	3714
1005.081	3385
1005.252	3403
1005.423	3374
1005.594	3278
1005.765	3564
1005.936	3398
1006.106	3505
1006.277	3587
1006.448	3321
1006.619	3612
1006.790	3510
1006.961	3481
1007.132	3625
1007.303	3339
1007.474	3345
1007.645	3147
1007.816	2943
1007.987	3150
1008.158	2903
1008.329	2842
1008.500	2767
1008.671	2687
1008.842	2524
1009.013	2442
1009.184	2302
1009.355	2312
1009.526	2480
1009.697	2218
1009.868	2215
1010.039	2092
1010.210	2115
1010.381	2067
1010.552	1978
1010.723	1956
1010.894	1920
1011.065	1980
1011.236	1953
1011.407	2070
1011.578	2002
1011.749	2030
1011.920	1993
1012.091	1952
1012.262	2052
1012.433	2064
1012.604	2024
1012.775	2050
1012.946	2168
1013.117	2159
1013.288	2193
1013.459	2207
1013.630	2341
1013.801	2320
1013.972	2378
1014.143	2441
1014.314	2590
1014.485	2551
1014.656	2688
1014.827	2856
1014.998	2843
1015.169	2947
1015.340	2952
1015.511	3016
1015.681	3184
1015.852	3195
1016.023	3241
1016.194	3339
1016.365	3535
1016.536	3601
1016.707	3609
1016.878	3703
1017.049	3967
1017.220	4017
1017.391	4201
1017.562	4251
1017.733	4281
1017.904	4243
1018.075	4180
1018.246	4422
1018.417	4477
1018.588	4580
1018.759	4541
1018.930	4751
1019.101	5282
1019.272	5426
1019.443	5662
1019.614	6156
1019.785	6308
1019.956	6430
1020.127	6888
1020.298	6616
1020.469	6624
1020.640	7406
1020.811	7741
1020.982	7515
1021.153	8098
1021.324	8222
1021.495	8529
1021.666	10261
1021.837	10778
1022.008	11731
1022.179	12161
1022.350	12021
1022.521	12218
1022.692	11698
1022.863	14026
1023.034	14636
1023.205	15480
1023.376	15966
1023.547	16512
1023.718	15668
1023.889	16192
1024.060	16724
1024.231	15616
1024.402	15897
1024.573	14899
1024.744	11974
1024.915	10103
1025.085	8860
1025.256	8727
1025.427	8259
1025.598	7335
1025.769	6860
1025.940	6472
1026.111	6708
1026.282	7504
1026.453	7422
1026.624	7238
1026.795	7962
1026.966	7565
1027.137	8265
1027.308	8237
1027.479	7906
1027.650	7603
1027.821	8133
1027.992	7180
1028.163	6593
1028.334	5871
1028.505	5890
1028.676	5662
1028.847	5249
1029.018	5423
1029.189	5267
1029.360	5049
1029.531	5518
1029.702	5612
1029.873	5746
1030.044	5626
1030.215	5714
1030.386	5662
1030.557	5901
1030.728	5801
1030.899	6135
1031.070	6260
1031.241	6300
1031.412	6112
1031.583	6199
1031.754	5945
1031.925	6274
1032.096	6373
1032.267	6139
1032.438	5881
1032.609	5650
1032.780	5378
1032.951	5024
1033.122	4766
1033.293	4416
1033.464	4172
1033.635	3663
1033.806	3975
1033.977	3817
1034.148	4174
1034.319	4131
1034.489	4545
1034.660	4392
1034.831	4536
1035.002	4457
1035.173	4204
1035.344	3992
1035.515	4291
1035.686	3786
1035.857	3536
1036.028	3152
1036.199	2713
1036.370	2254
1036.541	2387
1036.712	2199
1036.883	2223
1037.054	2058
1037.225	2071
1037.396	2218
1037.567	2095
1037.738	1917
1037.909	2378
1038.080	2124
1038.251	2271
1038.422	2186
1038.593	2421
1038.764	2562
1038.935	2515
1039.106	2472
1039.277	2513
1039.448	2538
1039.619	2665
1039.790	2527
1039.961	2505
1040.132	2237
1040.303	2094
1040.474	2083
1040.645	2107
1040.816	2846
1040.987	2915
1041.158	3230
1041.329	3390
1041.500	3632
1041.671	4582
1041.842	4854
1042.013	5342
1042.184	5568
1042.355	6284
1042.526	6878
1042.697	7079
1042.868	7489
1043.039	8675
1043.210	9531
1043.381	10729
1043.552	11295
1043.723	11531
1043.894	12164
1044.064	11745
1044.235	11801
1044.406	11940
1044.577	11473
1044.748	10914
1044.919	10078
1045.090	9921
1045.261	8859
1045.432	7916
1045.603	8062
1045.774	8065
1045.945	7321
1046.116	7415
1046.287	7084
1046.458	6315
1046.629	5637
1046.800	5375
1046.971	4339
1047.142	3759
1047.313	3328
1047.484	3377
1047.655	2772
1047.826	2569
1047.997	2265
1048.168	2038
1048.339	1711
1048.510	1960
1048.681	1540
1048.852	1618
1049.023	1246
1049.194	1215
1049.365	1151
1049.536	970
1049.707	912
1049.878	888
1050.049	905
1050.220	926
1050.391	925
1050.562	1182
1050.733	1098
1050.904	1185
1051.075	1540
1051.246	1270
1051.417	1555
1051.588	1478
1051.759	1694
1051.930	1921
1052.101	2154
1052.272	1891
1052.443	1958
1052.614	2179
1052.785	2255
1052.956	2268
1053.127	2232
1053.298	2355
1053.468	2459
1053.639	2567
1053.810	2487
1053.981	2597
1054.152	2490
1054.323	2628
1054.494	2611
1054.665	2602
1054.836	2808
1055.007	2729
1055.178	2629
1055.349	2745
1055.520	2741
1055.691	2758
1055.862	2673
1056.033	2532
1056.204	2701
1056.375	2679
1056.546	2571
1056.717	2504
1056.888	2543
1057.059	2618
1057.230	2596
1057.401	2545
1057.572	2554
1057.743	2392
1057.914	2460
1058.085	2316
1058.256	2316
1058.427	2208
1058.598	2272
1058.769	2185
1058.940	2206
1059.111	2200
1059.282	2104
1059.453	2147
1059.624	2145
1059.795	2008
1059.966	2001
1060.137	2031
1060.308	2047
1060.479	1994
1060.650	2033
1060.821	1979
1060.992	1977
1061.163	2000
1061.334	2046
1061.505	1992
1061.676	1971
1061.847	1990
1062.018	2051
1062.189	2191
1062.360	2130
1062.531	2198
1062.702	2240
1062.872	2326
1063.043	2529
1063.214	2487
1063.385	2581
1063.556	2537
1063.727	2701
1063.898	2682
1064.069	2831
1064.240	2911
1064.411	2828
1064.582	2873
1064.753	2867
1064.924	2853
1065.095	2927
1065.266	2913
1065.437	3021
1065.608	2928
1065.779	3085
1065.950	2954
1066.121	3003
1066.292	2987
1066.463	3112
1066.634	3084
1066.805	3058
1066.976	3076
1067.147	2904
1067.318	2876
1067.489	2853
1067.660	2737
1067.831	2719
1068.002	2507
1068.173	2485
1068.344	2503
1068.515	2314
1068.686	2354
1068.857	2274
1069.028	2304
1069.199	2148
1069.370	2162
1069.541	2062
1069.712	1992
1069.883	1804
1070.054	1923
1070.225	1809
1070.396	1824
1070.567	1708
1070.738	1679
1070.909	1644
1071.080	1562
1071.251	1515
1071.422	1523
1071.593	1514
1071.764	1436
1071.935	1263
1072.106	1335
1072.277	1283
1072.447	1231
1072.618	1320
1072.789	1157
1072.960	1084
1073.131	1183
1073.302	1089
1073.473	1023
1073.644	936
1073.815	845
1073.986	969
1074.157	839
1074.328	842
1074.499	700
1074.670	786
1074.841	658
1075.012	660
1075.183	576
1075.354	596
1075.525	585
1075.696	556
1075.867	532
1076.038	535
1076.209	561
1076.380	454
1076.551	497
1076.722	440
1076.893	441
1077.064	383
1077.235	413
1077.406	450
1077.577	405
1077.748	374
1077.919	411
1078.090	377
1078.261	369
1078.432	346
1078.603	371
1078.774	369
1078.945	357
1079.116	379
1079.287	358
1079.458	386
1079.629	362
1079.800	416
1079.971	412
1080.142	432
1080.313	405
1080.484	474
1080.655	464
1080.826	523
1080.997	523
1081.168	500
1081.339	610
1081.510	637
1081.681	591
1081.851	618
1082.022	638
1082.193	628
1082.364	680
1082.535	695
1082.706	730
1082.877	812
1083.048	862
1083.219	800
1083.390	945
1083.561	936
1083.732	990
1083.903	983
1084.074	1170
1084.245	1164
1084.416	1064
1084.587	1202
1084.758	1289
1084.929	1254
1085.100	1306
1085.271	1275
1085.442	1369
1085.613	1414
1085.784	1484
1085.955	1489
1086.126	1541
1086.297	1660
1086.468	1717
1086.639	1777
1086.810	1822
1086.981	1921
1087.152	2059
1087.323	2032
1087.494	2026
1087.665	2095
1087.836	2149
1088.007	2211
1088.178	2184
1088.349	2388
1088.520	2409
1088.691	2466
1088.862	2410
1089.033	2597
1089.204	2705
1089.375	2656
1089.546	2701
1089.717	2684
1089.888	2762
1090.059	2814
1090.230	2810
1090.401	2901
1090.572	2939
1090.743	2951
1090.914	3051
1091.085	3198
1091.255	3179
1091.426	3190
1091.597	3135
1091.768	3301
1091.939	3390
1092.110	3295
1092.281	3319
1092.452	3459
1092.623	3556
1092.794	3546
1092.965	3535
1093.136	3504
1093.307	3540
1093.478	3605
1093.649	3630
1093.820	3708
1093.991	3817
1094.162	3838
1094.333	4004
1094.504	4019
1094.675	3946
1094.846	3856
1095.017	3910
1095.188	3932
1095.359	3847
1095.530	3887
1095.701	3891
1095.872	3926
1096.043	3978
1096.214	4045
1096.385	4024
1096.556	4007
1096.727	4006
1096.898	3918
1097.069	3953
1097.240	3992
1097.411	3995
1097.582	4171
1097.753	4253
1097.924	4233
1098.095	4165
1098.266	4327
1098.437	4292
1098.608	4285
1098.779	4206
1098.950	4032
1099.121	3972
1099.292	4045
1099.463	4057
1099.634	4019
1099.805	3989
1099.976	3991
1100.147	4110
1100.318	4142
1100.489	4197
1100.660	4236
1100.830	4166
1101.001	4158
1101.172	4009
1101.343	4038
1101.514	4118
1101.685	4169
1101.856	4070
1102.027	4119
1102.198	4111
1102.369	3918
1102.540	4111
1102.711	3977
1102.882	3886
1103.053	3961
1103.224	3843
1103.395	3869
1103.566	3917
1103.737	3763
1103.908	3856
1104.079	3811
1104.250	3808
1104.421	3847
1104.592	3724
1104.763	3721
1104.934	3893
1105.105	3760
1105.276	3614
1105.447	3541
1105.618	3510
1105.789	3657
1105.960	3492
1106.131	3480
1106.302	3561
1106.473	3484
1106.644	3482
1106.815	3335
1106.986	3355
1107.157	3278
1107.328	3356
1107.499	3329
1107.670	3262
1107.841	3276
1108.012	3153
1108.183	3232
1108.354	3161
1108.525	3068
1108.696	3162
1108.867	3239
1109.038	3121
1109.209	3058
1109.380	3070
1109.551	3100
1109.722	2950
1109.893	2888
1110.064	2879
1110.234	2896
1110.405	2767
1110.576	2743
1110.747	2663
1110.918	2647
1111.089	2600
1111.260	2546
1111.431	2478
1111.602	2471
1111.773	2598
1111.944	2534
1112.115	2477
1112.286	2503
1112.457	2434
1112.628	2431
1112.799	2351
1112.970	2290
1113.141	2195
1113.312	2203
1113.483	2239
1113.654	2125
1113.825	2202
1113.996	2281
1114.167	2190
1114.338	2026
1114.509	2011
1114.680	2065
1114.851	2020
1115.022	1969
1115.193	1910
1115.364	1894
1115.535	1828
1115.706	1891
1115.877	1857
1116.048	1860
1116.219	1732
1116.390	1685
1116.561	1672
1116.732	1668
1116.903	1625
1117.074	1649
1117.245	1593
1117.416	1619
1117.587	1600
1117.758	1573
1117.929	1563
1118.100	1651
1118.271	1536
1118.442	1586
1118.613	1566
1118.784	1526
1118.955	1524
1119.126	1490
1119.297	1377
1119.468	1419
1119.638	1373
1119.809	1428
1119.980	1383
1120.151	1319
1120.322	1318
1120.493	1364
1120.664	1399
1120.835	1260
1121.006	1297
1121.177	1222
1121.348	1257
1121.519	1288
1121.690	1185
1121.861	1257
1122.032	1159
1122.203	1162
1122.374	1167
1122.545	1204
1122.716	1223
1122.887	1172
1123.058	1219
1123.229	1206
1123.400	1192
1123.571	1141
1123.742	1126
1123.913	1148
1124.084	1144
1124.255	1238
1124.426	1168
1124.597	1179
1124.768	1143
1124.939	1096
1125.110	1120
1125.281	1095
1125.452	1080
1125.623	1119
1125.794	1084
1125.965	1100
1126.136	1029
1126.307	1112
1126.478	1106
1126.649	1061
1126.820	1089
1126.991	1032
1127.162	1070
1127.333	1016
1127.504	1002
1127.675	960
1127.846	1042
1128.017	990
1128.188	1012
1128.359	964
1128.530	957
1128.701	926
1128.872	850
1129.043	869
1129.213	940
1129.384	913
1129.555	921
1129.726	920
1129.897	962
1130.068	918
1130.239	863
1130.410	845
1130.581	917
1130.752	873
1130.923	828
1131.094	838
1131.265	853
1131.436	831
1131.607	866
1131.778	817
1131.949	896
1132.120	818
1132.291	749
1132.462	780
1132.633	780
1132.804	777
1132.975	700
1133.146	750
1133.317	727
1133.488	755
1133.659	672
1133.830	712
1134.001	696
1134.172	646
1134.343	652
1134.514	632
1134.685	550
1134.856	626
1135.027	629
1135.198	560
1135.369	583
1135.540	593
1135.711	573
1135.882	612
1136.053	561
1136.224	559
1136.395	588
1136.566	564
1136.737	550
1136.908	559
1137.079	521
1137.250	518
1137.421	496
1137.592	516
1137.763	504
1137.934	463
1138.105	450
1138.276	478
1138.447	405
1138.617	422
1138.788	434
1138.959	405
1139.130	378
1139.301	377
1139.472	382
1139.643	378
1139.814	350
1139.985	366
1140.156	326
1140.327	370
1140.498	362
1140.669	323
1140.840	307
1141.011	343
1141.182	299
1141.353	340
1141.524	275
1141.695	285
1141.866	292
1142.037	311
1142.208	262
1142.379	262
1142.550	263
1142.721	250
1142.892	249
1143.063	250
1143.234	239
1143.405	230
1143.576	219
1143.747	238
1143.918	210
1144.089	216
1144.260	219
1144.431	200
1144.602	192
1144.773	209
1144.944	181
1145.115	188
1145.286	192
1145.457	165
1145.628	185
1145.799	160
1145.970	179
1146.141	155
1146.312	153
1146.483	145
1146.654	144
1146.825	144
1146.996	147
1147.167	134
1147.338	151
1147.509	131
1147.680	128
1147.851	131
1148.021	129
1148.192	125
1148.363	128
1148.534	116
1148.705	128
1148.876	123
1149.047	122
1149.218	122
1149.389	102
1149.560	113
1149.731	91
1149.902	91
1150.073	90
1150.244	96
1150.415	88
1150.586	80
1150.757	81
1150.928	79
1151.099	76
1151.270	76
1151.441	77
1151.612	65
1151.783	66
1151.954	70
1152.125	67
1152.296	60
1152.467	62
1152.638	63
1152.809	52
1152.980	61
1153.151	59
1153.322	52
1153.493	56
1153.664	53
1153.835	61
1154.006	54
1154.177	45
1154.348	51
1154.519	51
1154.690	51
1154.861	48
1155.032	51
1155.203	45
1155.374	48
1155.545	42
1155.716	40
1155.887	44
1156.058	45
1156.229	45
1156.400	38
1156.571	41
1156.742	40
1156.913	39
1157.084	39
1157.255	45
1157.426	40
1157.596	41
1157.767	39
1157.938	45
1158.109	38
1158.280	45
1158.451	35
1158.622	39
1158.793	36
1158.964	36
1159.135	33
1159.306	41
1159.477	36
1159.648	39
1159.819	40
1159.990	36
1160.161	43
1160.332	39
1160.503	38
1160.674	34
1160.845	36
1161.016	41
1161.187	37
1161.358	35
1161.529	37
1161.700	34
1161.871	32
1162.042	35
1162.213	42
1162.384	34
1162.555	35
1162.726	35
1162.897	43
1163.068	35
1163.239	32
1163.410	41
1163.581	38
1163.752	35
1163.923	35
1164.094	40
1164.265	38
1164.436	38
1164.607	37
1164.778	35
1164.949	39
1165.120	37
1165.291	35
1165.462	34
1165.633	36
1165.804	39
1165.975	43
1166.146	33
1166.317	36
1166.488	39
1166.659	36
1166.830	41
1167.000	35
1167.171	39
1167.342	33
1167.513	34
1167.684	32
1167.855	39
1168.026	42
1168.197	37
1168.368	39
1168.539	35
1168.710	40
1168.881	39
1169.052	37
1169.223	44
1169.394	34
1169.565	39
1169.736	32
1169.907	38
1170.078	33
1170.249	32
1170.420	37
1170.591	40
1170.762	38
1170.933	38
1171.104	34
1171.275	34
1171.446	36
1171.617	33
1171.788	35
1171.959	33
1172.130	33
1172.301	41
1172.472	30
1172.643	35
1172.814	32
1172.985	34
1173.156	34
1173.327	36
1173.498	38
1173.669	30
1173.840	37
1174.011	37
1174.182	35
1174.353	37
1174.524	31
1174.695	38
1174.866	37
1175.037	37
1175.208	32
1175.379	35
1175.550	33
1175.721	36
1175.892	30
1176.063	29
1176.234	29
1176.404	34
1176.575	32
1176.746	31
1176.917	37
1177.088	32
1177.259	33
1177.430	29
1177.601	37
1177.772	31
1177.943	39
1178.114	31
1178.285	33
1178.456	32
1178.627	36
1178.798	35
1178.969	30
1179.140	36
1179.311	31
1179.482	30
1179.653	37
1179.824	28
1179.995	29
1180.166	37
1180.337	27
1180.508	30
1180.679	32
1180.850	31
1181.021	30
1181.192	33
1181.363	28
1181.534	31
1181.705	32
1181.876	28
1182.047	29
1182.218	30
1182.389	34
1182.560	29
1182.731	31
1182.902	32
1183.073	27
1183.244	30
1183.415	29
1183.586	33
1183.757	32
1183.928	29
1184.099	30
1184.270	26
1184.441	30
1184.612	29
1184.783	28
1184.954	30
1185.125	28
1185.296	33
1185.467	31
1185.638	32
1185.809	35
1185.979	30
1186.150	32
1186.321	30
1186.492	29
1186.663	30
1186.834	30
1187.005	32
1187.176	33
1187.347	33
1187.518	30
1187.689	26
1187.860	32
1188.031	34
1188.202	31
1188.373	32
1188.544	33
1188.715	32
1188.886	29
1189.057	34
1189.228	27
1189.399	29
1189.570	33
1189.741	28
1189.912	31
1190.083	30
1190.254	31
1190.425	32
1190.596	29
1190.767	28
1190.938	29
1191.109	33
1191.280	29
1191.451	28
1191.622	33
1191.793	30
1191.964	29
1192.135	28
1192.306	31
1192.477	36
1192.648	32
1192.819	32
1192.990	33
1193.161	33
1193.332	27
1193.503	28
1193.674	32
1193.845	32
1194.016	30
1194.187	26
1194.358	28
1194.529	29
1194.700	32
1194.871	31
1195.042	34
1195.213	27
1195.383	27
1195.554	33
1195.725	30
1195.896	28
1196.067	27
1196.238	28
1196.409	38
1196.580	32
1196.751	26
1196.922	30
1197.093	43
1197.264	28
1197.435	38
1197.606	33
1197.777	34
1197.948	31
1198.119	26
1198.290	31
1198.461	31
1198.632	28
1198.803	28
1198.974	28
1199.145	29
1199.316	29
1199.487	32
1199.658	29
1199.829	28
1200.000	29